Folder: battery_management/traditional_methods

Note: traditional_methods/README.md
baseline1, the code is from zenodo.org/record/6827566#.Y2dmj3ZBxPY

File: train.csv
cell_key,minimum_dQ_100_10,variance_dQ_100_10,skewness_dQ_100_10,kurtosis_dQ_100_10,slope_lin_fit_2_100,intercept_lin_fit_2_100,discharge_capacity_2,diff_discharge_capacity_max_2,mean_charge_time_2_6,minimum_IR_2_100,diff_IR_100_2,minimum_dQ_5_4,variance_dQ_5_4,cycle_life,cycle_550_clf
4-3,1.09661,-5.9383,-2.20247,-0.279375,-0.142273,1172.25,1174.6,0.0,1855.2,9999,9999,9999,9999,1142,9999
5-7,1.08459,-3.75953,2.76811,5.53002,-0.136389,1173.65,1176,0.0,1870.6,9999,9999,9999,9999,1448,9999
3-3,0.0939149,-4.68047,-0.102869,0.231767,0.00834185,1186.66,1173.51,17.0529,1866.4,9999,9999,9999,9999,1649,9999
2-3,0.929572,-5.2269,2.3829,5.11143,0.0892148,1180.66,1166.45,23.073,1862.0,9999,9999,9999,9999,1751,9999
9-3,0.421908,-0.127773,-0.985345,0.557964,-0.0134025,1204.24,1191.33,15.8159,1917.8,9999,9999,9999,9999,1905,9999
10-5,0.170319,-4.28026,2.14591,4.80056,0.0399615,1194.72,1179.9,20.5298,1885.0,9999,9999,9999,9999,2030,9999
3-2,0.220791,-5.03835,-0.744111,-0.0599738,0.00171764,1197.82,1185.426,15.8633,1909.4,9999,9999,9999,9999,2283,9999
3-7,1.00114,-3.69104,2.08197,4.59022,-0.110536,1168.17,1170.4,0.0,1841.6,9999,9999,9999,9999,2479,9999
9-1,0.560694,-5.21343,2.78822,5.59229,-0.0446301,1209.33,1197.14,14.3158,1941.4,9999,9999,9999,9999,2057,9999
2-2,1.16346,-4.38375,-0.27196,1.80843,-0.167266,1217.19,1220.21,0.0,2099.6,9999,9999,9999,9999,2651,9999
4-7,1.10731,-3.61365,2.27446,5.03916,-0.146649,1224.2,1226.72,0.0,2121.0,9999,9999,9999,9999,2216,9999
9-7,-0.1027,-5.78379,-0.827108,0.0905868,-0.0140894,1197.81,1186.43,14.5328,1893.4,9999,9999,9999,9999,2012,9999
1-8,1.02501,-4.80734,2.33051,4.9803,-0.117677,1186.96,1189.95,0.0,1933.6,9999,9999,9999,9999,2285,9999
4-6,1.11288,-6.0725,2.07552,4.68275,-0.14249,1167.2,1169.5,0.0,1856.8,9999,9999,9999,9999,1380,9999
2-7,0.514156,-3.61854,1.4339,3.65765,0.0295077,1195.72,1181.473,19.5618,1898.2,9999,9999,9999,9999,2202,9999
8-4,0.99673,-6.02668,2.08697,4.66507,-0.108641,1175.96,1178.13,0.0,1855.6,9999,9999,9999,9999,1885,9999
7-2,0.875267,-4.10825,2.57472,5.24589,-0.0882089,1200.46,1190.62,9.80184,1910.8,9999,9999,9999,9999,2030,9999
10-3,1.04696,-5.65468,1.67138,4.09682,-0.128569,1178.74,1181.39,0.0,1860.2,9999,9999,9999,9999,1848,9999
2-4,1.13316,0.191848,-0.73671,0.52453,-0.141493,1180.54,1183.06,0.0,1911.6,9999,9999,9999,9999,1499,9999
7-4,1.05276,-1.99107,0.282019,-1.44415,-0.113758,1169.8,1171.65,0.0,1837.6,9999,9999,9999,9999,1393,9999
3-4,1.11328,-4.81707,0.728559,2.80858,-0.14489,1170.08,1172.68,0.0,1846.6,9999,9999,9999,9999,1766,9999
5-4,0.99172,-6.21085,1.6764,4.13768,-0.106742,1176.15,1179.08,0.0,1899.0,9999,9999,9999,9999,1962,9999
8-7,0.943496,-5.29264,-1.2699,0.153387,-0.0957739,1178,1180.28,0.0,1858.4,9999,9999,9999,9999,2047,9999
7-7,1.019,-4.12037,2.94216,5.88494,-0.119068,1171.45,1173.38,0.0,1883.6,9999,9999,9999,9999,1685,9999
4-4,1.07294,-5.47131,-1.20786,-0.014834,-0.130425,1168.3,1170.51,0.0,1849.2,9999,9999,9999,9999,1491,9999
1-3,0.864433,-4.07658,2.84653,5.74556,0.0934633,1178.75,1162.77,24.9418,1853.8,9999,9999,9999,9999,1858,9999
7-1,1.08937,-6.10147,2.31845,4.90554,-0.137124,1179.42,1181.99,0.0,1872.8,9999,9999,9999,9999,1690,9999
5-2,0.897009,-3.87135,2.82406,5.64134,0.106372,1182.99,1167.96,24.471,1858.2,9999,9999,9999,9999,1926,9999
6-4,1.08968,-3.58159,2.61349,5.30763,-0.135557,1174.16,1176.85,0.0,1878.4,9999,9999,9999,9999,1717,9999
9-8,0.0184286,-4.3471,2.45901,5.17108,0.0289826,1188.66,1174.36,18.8471,1866.8,9999,9999,9999,9999,2308,9999
9-5,0.276477,-7.31227,-1.05283,0.190752,-0.025141,1196.51,1185.16,13.3943,1899.2,9999,9999,9999,9999,2168,9999
6-3,0.684486,0.141598,-0.997341,0.609709,0.0527202,1191.59,1178.31,19.807,1897.8,9999,9999,9999,9999,1804,9999
10-8,1.12088,-7.03594,2.98981,5.99027,-0.144483,1182.74,1185.36,0.0,1899.4,9999,9999,9999,9999,1400,9999
1-6,1.34684,-5.29911,2.71253,5.58974,-0.254164,1196.25,1201.35,0.0,2271.4,9999,9999,9999,9999,1143,9999
3-5,1.16155,-5.03281,0.626542,2.89321,-0.160015,1225.02,1227.77,0.0,2111.4,9999,9999,9999,9999,2657,9999
2-6,0.839926,-4.13486,-1.09489,0.0316562,0.0554131,1188.98,1173.82,21.7837,1882.4,9999,9999,9999,9999,1572,9999
3-8,-0.312245,-4.83597,-1.13131,0.181372,-0.00958734,1210.77,1198.41,15.8686,1954.6,9999,9999,9999,9999,2342,9999
3-6,0.208408,-4.06828,2.13213,4.6695,0.028479,1191.82,1178.74,17.5802,1878.4,9999,9999,9999,9999,2491,9999
4-8,0.743317,-3.98433,2.77321,5.61824,0.0649766,1195.26,1180.51,21.9547,1903.2,9999,9999,9999,9999,1706,9999
7-8,0.542026,-5.63615,2.97171,5.9704,0.0419459,1194.83,1181.03,19.4635,1886.4,9999,9999,9999,9999,1938,9999
5-1,1.09455,-6.15552,-2.36792,0.310364,-0.134165,1201.17,1204.66,0.0,2054.2,9999,9999,9999,9999,2507,9999
2-8,1.05459,-4.17584,2.39643,5.1371,-0.130644,1175.27,1177.6,0.0,1882.0,9999,9999,9999,9999,1481,9999
8-2,1.1522,-0.169504,-1.31859,0.419437,-0.138232,1197.53,1199.57,0.0,2010.8,9999,9999,9999,9999,2041,9999
1-5,0.931965,-5.28992,2.58516,5.37244,0.0933864,1171.84,1156.59,24.2899,1826.0,9999,9999,9999,9999,1971,9999
7-3,0.998242,-7.08165,2.96329,6.00621,-0.111266,1168.13,1169.73,0.0,1826.2,9999,9999,9999,9999,1295,9999
10-2,0.693916,-5.18888,2.78985,5.57595,-0.0582074,1199.43,1186.83,14.0621,1898.0,9999,9999,9999,9999,1697,9999
5-5,0.732861,-5.31412,2.82857,5.66245,0.0763309,1183.56,1170.49,21.3256,1872.0,9999,9999,9999,9999,1583,9999
9-2,-0.470159,-5.77773,-0.301847,-1.03042,0.000497418,1201.96,1190.5,15.105,1906.4,9999,9999,9999,9999,2143,9999
5-6,1.07679,-5.47687,1.37445,3.73818,-0.136238,1199.24,1202.32,0.0,2034.4,9999,9999,9999,9999,2460,9999
1-7,1.08113,-5.03905,2.55012,5.30079,-0.130782,1182.07,1184.78,0.0,1912.6,9999,9999,9999,9999,1678,9999
8-3,0.371307,-10.4297,-0.519532,-0.862675,0.0238662,1194.06,1180.32,18.3922,1882.0,9999,9999,9999,9999,2290,9999
4-1,1.07696,-4.47688,-0.826075,0.0647157,-0.133746,1178.95,1181.44,0.0,1871.6,9999,9999,9999,9999,2217,9999
4-2,0.290246,-5.1601,1.90555,4.56706,0.0191076,1192.69,1180.2,17.4694,1881.4,9999,9999,9999,9999,1782,9999
1-4,0.924957,-6.17432,1.59864,4.05964,0.0939103,1178.29,1163.48,24.0062,1855.8,9999,9999,9999,9999,1500,9999
6-5,1.08881,-0.616757,-1.2532,0.650976,-0.124339,1181.61,1184.38,0.0,1922.6,9999,9999,9999,9999,2178,9999